Sample 3 - sdpdrr2 - Wavelength 0.79764                   
  1.500 790
  1.510 795
  1.520 918
  1.530 930
  1.540 900
  1.550 864
  1.560 999
  1.570 1018
  1.580 1024
  1.590 1069
  1.600 973
  1.610 1069
  1.620 955
  1.630 973
  1.640 992
  1.650 1037
  1.660 980
  1.670 1050
  1.680 1018
  1.690 1056
  1.700 980
  1.710 1018
  1.720 1116
  1.730 1136
  1.740 1056
  1.750 999
  1.760 1109
  1.770 1122
  1.780 1089
  1.790 1109
  1.800 1089
  1.810 1082
  1.820 1218
  1.830 1176
  1.840 1170
  1.850 1102
  1.860 1129
  1.870 1136
  1.880 1005
  1.890 1218
  1.900 1183
  1.910 1136
  1.920 1204
  1.930 1122
  1.940 1246
  1.950 1163
  1.960 1176
  1.970 1218
  1.980 1129
  1.990 1260
  2.000 1246
  2.010 1163
  2.020 1239
  2.030 1190
  2.040 1122
  2.050 1260
  2.060 1197
  2.070 1318
  2.080 1232
  2.090 1197
  2.100 1163
  2.110 1190
  2.120 1246
  2.130 1225
  2.140 1142
  2.150 1211
  2.160 1176
  2.170 1170
  2.180 1170
  2.190 1183
  2.200 1267
  2.210 1076
  2.220 1310
  2.230 1149
  2.240 1211
  2.250 1204
  2.260 1225
  2.270 1218
  2.280 1149
  2.290 1211
  2.300 1156
  2.310 1096
  2.320 1204
  2.330 1190
  2.340 1253
  2.350 1267
  2.360 1197
  2.370 1211
  2.380 1253
  2.390 1246
  2.400 1122
  2.410 1149
  2.420 1190
  2.430 1211
  2.440 1197
  2.450 1260
  2.460 1116
  2.470 1156
  2.480 1183
  2.490 1170
  2.500 1176
  2.510 1156
  2.520 1176
  2.530 1076
  2.540 1170
  2.550 1183
  2.560 1232
  2.570 1239
  2.580 1190
  2.590 1116
  2.600 1176
  2.610 1183
  2.620 1204
  2.630 1204
  2.640 1122
  2.650 1170
  2.660 1129
  2.670 1204
  2.680 1197
  2.690 1082
  2.700 1197
  2.710 1089
  2.720 1197
  2.730 1082
  2.740 1225
  2.750 1170
  2.760 1129
  2.770 1156
  2.780 1129
  2.790 1156
  2.800 1136
  2.810 1176
  2.820 1239
  2.830 1183
  2.840 1142
  2.850 1218
  2.860 1122
  2.870 1170
  2.880 1142
  2.890 1116
  2.900 1176
  2.910 1122
  2.920 1129
  2.930 1136
  2.940 1142
  2.950 1136
  2.960 1116
  2.970 1109
  2.980 1204
  2.990 1190
  3.000 1176
  3.010 1232
  3.020 1170
  3.030 1116
  3.040 1142
  3.050 1197
  3.060 1156
  3.070 1136
  3.080 1129
  3.090 1163
  3.100 1082
  3.110 1129
  3.120 1142
  3.130 1109
  3.140 1102
  3.150 1116
  3.160 1176
  3.170 1116
  3.180 1156
  3.190 1082
  3.200 1197
  3.210 1109
  3.220 1163
  3.230 1129
  3.240 1069
  3.250 1142
  3.260 1076
  3.270 1069
  3.280 1163
  3.290 1082
  3.300 1170
  3.310 1037
  3.320 1163
  3.330 1183
  3.340 1183
  3.350 1069
  3.360 1156
  3.370 1232
  3.380 1142
  3.390 1232
  3.400 1332
  3.410 1576
  3.420 2144
  3.430 1190
  3.440 1129
  3.450 1096
  3.460 1129
  3.470 1109
  3.480 1096
  3.490 1005
  3.500 1024
  3.510 1082
  3.520 1024
  3.530 967
  3.540 1142
  3.550 1116
  3.560 1063
  3.570 1043
  3.580 1056
  3.590 1056
  3.600 1030
  3.610 1056
  3.620 1005
  3.630 1030
  3.640 1018
  3.650 992
  3.660 1109
  3.670 1037
  3.680 967
  3.690 942
  3.700 973
  3.710 1056
  3.720 973
  3.730 999
  3.740 955
  3.750 1018
  3.760 955
  3.770 1037
  3.780 1122
  3.790 980
  3.800 930
  3.810 961
  3.820 961
  3.830 986
  3.840 973
  3.850 973
  3.860 955
  3.870 1043
  3.880 973
  3.890 1005
  3.900 986
  3.910 936
  3.920 955
  3.930 1024
  3.940 967
  3.950 1076
  3.960 961
  3.970 961
  3.980 973
  3.990 888
  4.000 949
  4.010 980
  4.020 918
  4.030 894
  4.040 870
  4.050 912
  4.060 870
  4.070 912
  4.080 936
  4.090 900
  4.100 870
  4.110 882
  4.120 973
  4.130 853
  4.140 894
  4.150 847
  4.160 1018
  4.170 906
  4.180 906
  4.190 864
  4.200 853
  4.210 967
  4.220 912
  4.230 912
  4.240 986
  4.250 853
  4.260 870
  4.270 918
  4.280 906
  4.290 858
  4.300 853
  4.310 894
  4.320 924
  4.330 864
  4.340 906
  4.350 876
  4.360 894
  4.370 864
  4.380 864
  4.390 853
  4.400 918
  4.410 847
  4.420 936
  4.430 853
  4.440 835
  4.450 973
  4.460 847
  4.470 853
  4.480 930
  4.490 858
  4.500 906
  4.510 876
  4.520 812
  4.530 864
  4.540 858
  4.550 924
  4.560 858
  4.570 858
  4.580 841
  4.590 858
  4.600 906
  4.610 882
  4.620 812
  4.630 795
  4.640 912
  4.650 864
  4.660 807
  4.670 841
  4.680 906
  4.690 942
  4.700 894
  4.710 876
  4.720 847
  4.730 888
  4.740 847
  4.750 847
  4.760 829
  4.770 847
  4.780 924
  4.790 955
  4.800 1109
  4.810 1665
  4.820 3422
  4.830 8649
  4.840 17796
  4.850 3600
  4.860 1529
  4.870 1163
  4.880 1037
  4.890 1018
  4.900 961
  4.910 900
  4.920 835
  4.930 900
  4.940 870
  4.950 847
  4.960 942
  4.970 924
  4.980 835
  4.990 812
  5.000 858
  5.010 870
  5.020 841
  5.030 949
  5.040 853
  5.050 784
  5.060 841
  5.070 829
  5.080 835
  5.090 790
  5.100 864
  5.110 853
  5.120 818
  5.130 835
  5.140 835
  5.150 807
  5.160 876
  5.170 762
  5.180 829
  5.190 795
  5.200 864
  5.210 835
  5.220 829
  5.230 841
  5.240 853
  5.250 762
  5.260 784
  5.270 870
  5.280 847
  5.290 870
  5.300 864
  5.310 824
  5.320 858
  5.330 894
  5.340 853
  5.350 853
  5.360 829
  5.370 853
  5.380 858
  5.390 876
  5.400 751
  5.410 853
  5.420 847
  5.430 795
  5.440 841
  5.450 824
  5.460 858
  5.470 864
  5.480 835
  5.490 847
  5.500 807
  5.510 894
  5.520 795
  5.530 824
  5.540 824
  5.550 835
  5.560 858
  5.570 847
  5.580 864
  5.590 801
  5.600 818
  5.610 784
  5.620 835
  5.630 829
  5.640 801
  5.650 756
  5.660 829
  5.670 807
  5.680 824
  5.690 718
  5.700 807
  5.710 853
  5.720 847
  5.730 829
  5.740 767
  5.750 858
  5.760 818
  5.770 751
  5.780 801
  5.790 936
  5.800 858
  5.810 807
  5.820 812
  5.830 841
  5.840 853
  5.850 807
  5.860 795
  5.870 858
  5.880 942
  5.890 1089
  5.900 1568
  5.910 3982
  5.920 11946
  5.930 22290
  5.940 4160
  5.950 1823
  5.960 1232
  5.970 1069
  5.980 1037
  5.990 870
  6.000 906
  6.010 1005
  6.020 882
  6.030 882
  6.040 818
  6.050 835
  6.060 767
  6.070 778
  6.080 773
  6.090 767
  6.100 801
  6.110 784
  6.120 762
  6.130 807
  6.140 790
  6.150 812
  6.160 801
  6.170 713
  6.180 807
  6.190 784
  6.200 756
  6.210 784
  6.220 795
  6.230 841
  6.240 807
  6.250 767
  6.260 778
  6.270 773
  6.280 790
  6.290 818
  6.300 773
  6.310 778
  6.320 812
  6.330 724
  6.340 801
  6.350 790
  6.360 841
  6.370 773
  6.380 718
  6.390 773
  6.400 795
  6.410 829
  6.420 795
  6.430 713
  6.440 790
  6.450 824
  6.460 801
  6.470 767
  6.480 756
  6.490 756
  6.500 784
  6.510 847
  6.520 790
  6.530 734
  6.540 795
  6.550 751
  6.560 767
  6.570 740
  6.580 801
  6.590 756
  6.600 790
  6.610 767
  6.620 756
  6.630 858
  6.640 790
  6.650 773
  6.660 778
  6.670 795
  6.680 734
  6.690 784
  6.700 773
  6.710 801
  6.720 734
  6.730 756
  6.740 784
  6.750 784
  6.760 795
  6.770 778
  6.780 807
  6.790 784
  6.800 790
  6.810 724
  6.820 745
  6.830 762
  6.840 812
  6.850 900
  6.860 784
  6.870 790
  6.880 767
  6.890 835
  6.900 740
  6.910 807
  6.920 824
  6.930 812
  6.940 756
  6.950 812
  6.960 740
  6.970 666
  6.980 847
  6.990 801
  7.000 778
  7.010 724
  7.020 724
  7.030 812
  7.040 734
  7.050 790
  7.060 795
  7.070 835
  7.080 734
  7.090 773
  7.100 718
  7.110 790
  7.120 778
  7.130 841
  7.140 756
  7.150 756
  7.160 790
  7.170 778
  7.180 724
  7.190 784
  7.200 801
  7.210 801
  7.220 795
  7.230 818
  7.240 918
  7.250 692
  7.260 795
  7.270 818
  7.280 795
  7.290 829
  7.300 824
  7.310 795
  7.320 829
  7.330 784
  7.340 729
  7.350 812
  7.360 829
  7.370 762
  7.380 835
  7.390 812
  7.400 724
  7.410 829
  7.420 790
  7.430 812
  7.440 841
  7.450 801
  7.460 756
  7.470 778
  7.480 807
  7.490 767
  7.500 784
  7.510 784
  7.520 876
  7.530 762
  7.540 790
  7.550 858
  7.560 807
  7.570 767
  7.580 745
  7.590 767
  7.600 795
  7.610 790
  7.620 778
  7.630 835
  7.640 864
  7.650 1102
  7.660 1156
  7.670 858
  7.680 745
  7.690 864
  7.700 784
  7.710 778
  7.720 829
  7.730 784
  7.740 801
  7.750 841
  7.760 767
  7.770 807
  7.780 762
  7.790 778
  7.800 853
  7.810 762
  7.820 870
  7.830 767
  7.840 847
  7.850 824
  7.860 818
  7.870 847
  7.880 801
  7.890 888
  7.900 858
  7.910 807
  7.920 882
  7.930 801
  7.940 835
  7.950 745
  7.960 778
  7.970 835
  7.980 894
  7.990 835
  8.000 778
  8.010 756
  8.020 767
  8.030 812
  8.040 853
  8.050 841
  8.060 784
  8.070 745
  8.080 835
  8.090 751
  8.100 824
  8.110 835
  8.120 847
  8.130 858
  8.140 906
  8.150 870
  8.160 888
  8.170 841
  8.180 812
  8.190 853
  8.200 790
  8.210 812
  8.220 858
  8.230 882
  8.240 818
  8.250 745
  8.260 835
  8.270 858
  8.280 807
  8.290 912
  8.300 882
  8.310 894
  8.320 882
  8.330 858
  8.340 853
  8.350 894
  8.360 882
  8.370 912
  8.380 1260
  8.390 1756
  8.400 1156
  8.410 876
  8.420 906
  8.430 888
  8.440 986
  8.450 924
  8.460 900
  8.470 894
  8.480 949
  8.490 882
  8.500 824
  8.510 841
  8.520 906
  8.530 870
  8.540 818
  8.550 906
  8.560 894
  8.570 924
  8.580 906
  8.590 888
  8.600 955
  8.610 876
  8.620 841
  8.630 882
  8.640 930
  8.650 870
  8.660 882
  8.670 942
  8.680 900
  8.690 864
  8.700 900
  8.710 864
  8.720 918
  8.730 949
  8.740 955
  8.750 894
  8.760 936
  8.770 906
  8.780 924
  8.790 864
  8.800 853
  8.810 912
  8.820 906
  8.830 835
  8.840 835
  8.850 986
  8.860 986
  8.870 949
  8.880 918
  8.890 942
  8.900 942
  8.910 973
  8.920 980
  8.930 930
  8.940 949
  8.950 949
  8.960 942
  8.970 936
  8.980 1005
  8.990 973
  9.000 1024
  9.010 1050
  9.020 1197
  9.030 1376
  9.040 2088
  9.050 6561
  9.060 21727
  9.070 11621
  9.080 3170
  9.090 1781
  9.100 1452
  9.110 1246
  9.120 1089
  9.130 1050
  9.140 1056
  9.150 1024
  9.160 942
  9.170 1037
  9.180 1043
  9.190 992
  9.200 1056
  9.210 980
  9.220 986
  9.230 980
  9.240 955
  9.250 961
  9.260 1011
  9.270 1030
  9.280 1005
  9.290 961
  9.300 1037
  9.310 961
  9.320 961
  9.330 1063
  9.340 1024
  9.350 961
  9.360 955
  9.370 1069
  9.380 1011
  9.390 1024
  9.400 986
  9.410 1030
  9.420 980
  9.430 1063
  9.440 973
  9.450 1043
  9.460 1011
  9.470 1018
  9.480 936
  9.490 930
  9.500 1056
  9.510 1069
  9.520 912
  9.530 1043
  9.540 1089
  9.550 967
  9.560 1018
  9.570 1005
  9.580 1018
  9.590 1037
  9.600 1056
  9.610 1056
  9.620 1024
  9.630 1018
  9.640 1037
  9.650 1076
  9.660 1122
  9.670 1232
  9.680 2079
  9.690 3624
  9.700 1781
  9.710 1163
  9.720 1163
  9.730 1142
  9.740 1050
  9.750 1050
  9.760 1018
  9.770 1030
  9.780 986
  9.790 1069
  9.800 949
  9.810 1030
  9.820 1024
  9.830 1129
  9.840 1076
  9.850 1122
  9.860 1063
  9.870 1024
  9.880 1037
  9.890 1037
  9.900 967
  9.910 1043
  9.920 1024
  9.930 1050
  9.940 1076
  9.950 1136
  9.960 1089
  9.970 1069
  9.980 1096
  9.990 973
 10.000 1096
 10.010 1129
 10.020 1109
 10.030 1096
 10.040 1109
 10.050 1050
 10.060 1116
 10.070 1129
 10.080 1043
 10.090 1136
 10.100 1076
 10.110 1156
 10.120 1102
 10.130 1109
 10.140 1142
 10.150 1096
 10.160 1109
 10.170 1129
 10.180 1246
 10.190 1260
 10.200 1376
 10.210 1429
 10.220 1560
 10.230 1798
 10.240 2352
 10.250 3819
 10.260 10120
 10.270 46053
 10.280 112829
 10.290 33893
 10.300 8372
 10.310 4147
 10.320 2788
 10.330 2172
 10.340 1798
 10.350 1568
 10.360 1537
 10.370 1347
 10.380 1303
 10.390 1239
 10.400 1332
 10.410 1089
 10.420 1129
 10.430 1122
 10.440 1176
 10.450 1089
 10.460 1156
 10.470 1102
 10.480 1156
 10.490 1156
 10.500 1109
 10.510 1102
 10.520 1069
 10.530 1082
 10.540 1050
 10.550 1109
 10.560 1063
 10.570 1183
 10.580 1043
 10.590 1142
 10.600 1043
 10.610 1149
 10.620 1109
 10.630 1050
 10.640 1076
 10.650 1018
 10.660 1142
 10.670 1102
 10.680 1225
 10.690 1211
 10.700 1156
 10.710 1116
 10.720 992
 10.730 1018
 10.740 1069
 10.750 1096
 10.760 1122
 10.770 1102
 10.780 1129
 10.790 1011
 10.800 1136
 10.810 1018
 10.820 1122
 10.830 1122
 10.840 1142
 10.850 1109
 10.860 1076
 10.870 1030
 10.880 1043
 10.890 1050
 10.900 1076
 10.910 1129
 10.920 1030
 10.930 1011
 10.940 1109
 10.950 1149
 10.960 1024
 10.970 1076
 10.980 1037
 10.990 973
 11.000 1024
 11.010 1102
 11.020 1102
 11.030 1056
 11.040 1089
 11.050 1109
 11.060 1011
 11.070 999
 11.080 1102
 11.090 1082
 11.100 986
 11.110 1069
 11.120 1082
 11.130 1142
 11.140 1109
 11.150 1136
 11.160 1005
 11.170 1109
 11.180 992
 11.190 1043
 11.200 1089
 11.210 1096
 11.220 1050
 11.230 1116
 11.240 1069
 11.250 1096
 11.260 1102
 11.270 1122
 11.280 1082
 11.290 1163
 11.300 1096
 11.310 1176
 11.320 1239
 11.330 1318
 11.340 1681
 11.350 2927
 11.360 11236
 11.370 21697
 11.380 5898
 11.390 2304
 11.400 1584
 11.410 1429
 11.420 1354
 11.430 1282
 11.440 1136
 11.450 1225
 11.460 1069
 11.470 1156
 11.480 1089
 11.490 1024
 11.500 1082
 11.510 1037
 11.520 1069
 11.530 1050
 11.540 1102
 11.550 1069
 11.560 1129
 11.570 1136
 11.580 1082
 11.590 1102
 11.600 1176
 11.610 1170
 11.620 1076
 11.630 1102
 11.640 1069
 11.650 1082
 11.660 1076
 11.670 1063
 11.680 1102
 11.690 1163
 11.700 1102
 11.710 1024
 11.720 1037
 11.730 1102
 11.740 1109
 11.750 1076
 11.760 1156
 11.770 1076
 11.780 1102
 11.790 1096
 11.800 1096
 11.810 1163
 11.820 1197
 11.830 1282
 11.840 1444
 11.850 1823
 11.860 3856
 11.870 13995
 11.880 16538
 11.890 4264
 11.900 1945
 11.910 1521
 11.920 1362
 11.930 1391
 11.940 1190
 11.950 1102
 11.960 1156
 11.970 1156
 11.980 1082
 11.990 1096
 12.000 1109
 12.010 1239
 12.020 1136
 12.030 1089
 12.040 1122
 12.050 1050
 12.060 1163
 12.070 1102
 12.080 1163
 12.090 1109
 12.100 1102
 12.110 1063
 12.120 1129
 12.130 1096
 12.140 1156
 12.150 1116
 12.160 1082
 12.170 1037
 12.180 1102
 12.190 1156
 12.200 1056
 12.210 1063
 12.220 1082
 12.230 1069
 12.240 1129
 12.250 1170
 12.260 1069
 12.270 1096
 12.280 1102
 12.290 1076
 12.300 1136
 12.310 1076
 12.320 1225
 12.330 1225
 12.340 1391
 12.350 2218
 12.360 4624
 12.370 3434
 12.380 1552
 12.390 1274
 12.400 1204
 12.410 1082
 12.420 1149
 12.430 1149
 12.440 1170
 12.450 1129
 12.460 1122
 12.470 1204
 12.480 1109
 12.490 1136
 12.500 1170
 12.510 1096
 12.520 1076
 12.530 1204
 12.540 1136
 12.550 1082
 12.560 1170
 12.570 1149
 12.580 1109
 12.590 1149
 12.600 1056
 12.610 1122
 12.620 1129
 12.630 1183
 12.640 1076
 12.650 1136
 12.660 1030
 12.670 1197
 12.680 1122
 12.690 1136
 12.700 1102
 12.710 1102
 12.720 1102
 12.730 1136
 12.740 1149
 12.750 1076
 12.760 1037
 12.770 1122
 12.780 1136
 12.790 1037
 12.800 1109
 12.810 1232
 12.820 1056
 12.830 1122
 12.840 1082
 12.850 1109
 12.860 1156
 12.870 1142
 12.880 1246
 12.890 1163
 12.900 1005
 12.910 1142
 12.920 1142
 12.930 1043
 12.940 1211
 12.950 1050
 12.960 1069
 12.970 1129
 12.980 1170
 12.990 1176
 13.000 1122
 13.010 1116
 13.020 1069
 13.030 1076
 13.040 1109
 13.050 1096
 13.060 1204
 13.070 1089
 13.080 1149
 13.090 1163
 13.100 1156
 13.110 1102
 13.120 1102
 13.130 1116
 13.140 1089
 13.150 1129
 13.160 1102
 13.170 1253
 13.180 1163
 13.190 1122
 13.200 1142
 13.210 1163
 13.220 1089
 13.230 1170
 13.240 1232
 13.250 1122
 13.260 1274
 13.270 1592
 13.280 3125
 13.290 2632
 13.300 1436
 13.310 1211
 13.320 1096
 13.330 1156
 13.340 1170
 13.350 1109
 13.360 1232
 13.370 1129
 13.380 1170
 13.390 1149
 13.400 1176
 13.410 1156
 13.420 1149
 13.430 1096
 13.440 1149
 13.450 1102
 13.460 1122
 13.470 1190
 13.480 1163
 13.490 1136
 13.500 1102
 13.510 1122
 13.520 1204
 13.530 1163
 13.540 1232
 13.550 1102
 13.560 1142
 13.570 1190
 13.580 1176
 13.590 1190
 13.600 1211
 13.610 1102
 13.620 1142
 13.630 1102
 13.640 1069
 13.650 1183
 13.660 1096
 13.670 1204
 13.680 1129
 13.690 1218
 13.700 1340
 13.710 1665
 13.720 3147
 13.730 2190
 13.740 1414
 13.750 1354
 13.760 1232
 13.770 1232
 13.780 1218
 13.790 1183
 13.800 1176
 13.810 1116
 13.820 1149
 13.830 1129
 13.840 1260
 13.850 1122
 13.860 1156
 13.870 1142
 13.880 1225
 13.890 1176
 13.900 1082
 13.910 1156
 13.920 1163
 13.930 1136
 13.940 1197
 13.950 1109
 13.960 1089
 13.970 1190
 13.980 1142
 13.990 1170
 14.000 1163
 14.010 1149
 14.020 1149
 14.030 1218
 14.040 1204
 14.050 1156
 14.060 1176
 14.070 1149
 14.080 1274
 14.090 1253
 14.100 1303
 14.110 1332
 14.120 1552
 14.130 2237
 14.140 6675
 14.150 7903
 14.160 2905
 14.170 1648
 14.180 1391
 14.190 1253
 14.200 1246
 14.210 1204
 14.220 1211
 14.230 1176
 14.240 1136
 14.250 1149
 14.260 1170
 14.270 1082
 14.280 1218
 14.290 1211
 14.300 1225
 14.310 1096
 14.320 1116
 14.330 1211
 14.340 1183
 14.350 1163
 14.360 1142
 14.370 1303
 14.380 1211
 14.390 1149
 14.400 1102
 14.410 1176
 14.420 1142
 14.430 1197
 14.440 1239
 14.450 1163
 14.460 1122
 14.470 1204
 14.480 1218
 14.490 1253
 14.500 1183
 14.510 1176
 14.520 1310
 14.530 1665
 14.540 2540
 14.550 8630
 14.560 16256
 14.570 5991
 14.580 2560
 14.590 1608
 14.600 1475
 14.610 1354
 14.620 1391
 14.630 1310
 14.640 1211
 14.650 1239
 14.660 1156
 14.670 1170
 14.680 1197
 14.690 1197
 14.700 1225
 14.710 1122
 14.720 1156
 14.730 1163
 14.740 1136
 14.750 1156
 14.760 1156
 14.770 1129
 14.780 1190
 14.790 1122
 14.800 1211
 14.810 1239
 14.820 1142
 14.830 1122
 14.840 1183
 14.850 1190
 14.860 1156
 14.870 1211
 14.880 1211
 14.890 1190
 14.900 1204
 14.910 1303
 14.920 1354
 14.930 1608
 14.940 2490
 14.950 7604
 14.960 17187
 14.970 6972
 14.980 2694
 14.990 1806
 15.000 1552
 15.010 1429
 15.020 1225
 15.030 1325
 15.040 1225
 15.050 1274
 15.060 1239
 15.070 1197
 15.080 1190
 15.090 1156
 15.100 1211
 15.110 1190
 15.120 1260
 15.130 1204
 15.140 1204
 15.150 1211
 15.160 1170
 15.170 1204
 15.180 1163
 15.190 1142
 15.200 1149
 15.210 1197
 15.220 1232
 15.230 1190
 15.240 1197
 15.250 1109
 15.260 1156
 15.270 1211
 15.280 1197
 15.290 1211
 15.300 1246
 15.310 1267
 15.320 1303
 15.330 1772
 15.340 3944
 15.350 8649
 15.360 4679
 15.370 2052
 15.380 1505
 15.390 1332
 15.400 1239
 15.410 1211
 15.420 1183
 15.430 1156
 15.440 1096
 15.450 1211
 15.460 1176
 15.470 1156
 15.480 1149
 15.490 1116
 15.500 1089
 15.510 1129
 15.520 1170
 15.530 1102
 15.540 1096
 15.550 1109
 15.560 1142
 15.570 1129
 15.580 1129
 15.590 1089
 15.600 1142
 15.610 1122
 15.620 1116
 15.630 1122
 15.640 1129
 15.650 1156
 15.660 1136
 15.670 1102
 15.680 1136
 15.690 1136
 15.700 1156
 15.710 1156
 15.720 1722
 15.730 3226
 15.740 2401
 15.750 1332
 15.760 1170
 15.770 1082
 15.780 1089
 15.790 1096
 15.800 1037
 15.810 1069
 15.820 1142
 15.830 1069
 15.840 1129
 15.850 1102
 15.860 1089
 15.870 1102
 15.880 1122
 15.890 1116
 15.900 1030
 15.910 1082
 15.920 1050
 15.930 1082
 15.940 1089
 15.950 1069
 15.960 1142
 15.970 1170
 15.980 1089
 15.990 1024
 16.000 1082
 16.010 1030
 16.020 1056
 16.030 1030
 16.040 999
 16.050 1050
 16.060 1102
 16.070 1142
 16.080 1163
 16.090 1722
 16.100 3552
 16.110 3721
 16.120 1764
 16.130 1211
 16.140 1170
 16.150 1069
 16.160 1082
 16.170 1102
 16.180 1122
 16.190 1063
 16.200 1102
 16.210 1116
 16.220 1136
 16.230 1253
 16.240 1303
 16.250 1482
 16.260 1384
 16.270 1129
 16.280 1082
 16.290 1089
 16.300 1089
 16.310 1056
 16.320 1056
 16.330 1011
 16.340 1043
 16.350 1005
 16.360 1018
 16.370 1050
 16.380 1050
 16.390 1024
 16.400 1030
 16.410 1050
 16.420 1011
 16.430 1011
 16.440 1102
 16.450 1225
 16.460 2079
 16.470 3399
 16.480 1989
 16.490 1325
 16.500 1109
 16.510 1102
 16.520 1037
 16.530 1030
 16.540 1063
 16.550 1096
 16.560 986
 16.570 1037
 16.580 1011
 16.590 1043
 16.600 1050
 16.610 1018
 16.620 1037
 16.630 1037
 16.640 1050
 16.650 961
 16.660 967
 16.670 999
 16.680 1011
 16.690 992
 16.700 1005
 16.710 967
 16.720 973
 16.730 1037
 16.740 1018
 16.750 999
 16.760 1018
 16.770 999
 16.780 992
 16.790 1043
 16.800 1056
 16.810 1129
 16.820 1892
 16.830 2200
 16.840 1310
 16.850 1043
 16.860 1024
 16.870 1005
 16.880 1011
 16.890 986
 16.900 999
 16.910 986
 16.920 1030
 16.930 980
 16.940 1024
 16.950 992
 16.960 918
 16.970 955
 16.980 999
 16.990 992
 17.000 1011
 17.010 992
 17.020 967
 17.030 924
 17.040 967
 17.050 999
 17.060 986
 17.070 1037
 17.080 1005
 17.090 942
 17.100 1063
 17.110 973
 17.120 1005
 17.130 1056
 17.140 1024
 17.150 1043
 17.160 1475
 17.170 2948
 17.180 3411
 17.190 1714
 17.200 1204
 17.210 1082
 17.220 1030
 17.230 1030
 17.240 961
 17.250 1018
 17.260 1018
 17.270 1011
 17.280 1063
 17.290 973
 17.300 980
 17.310 942
 17.320 967
 17.330 942
 17.340 986
 17.350 930
 17.360 955
 17.370 955
 17.380 930
 17.390 924
 17.400 967
 17.410 942
 17.420 942
 17.430 999
 17.440 924
 17.450 936
 17.460 967
 17.470 967
 17.480 973
 17.490 942
 17.500 986
 17.510 1170
 17.520 1429
 17.530 1122
 17.540 967
 17.550 942
 17.560 930
 17.570 906
 17.580 949
 17.590 967
 17.600 942
 17.610 961
 17.620 918
 17.630 967
 17.640 918
 17.650 936
 17.660 918
 17.670 906
 17.680 912
 17.690 980
 17.700 924
 17.710 936
 17.720 912
 17.730 980
 17.740 967
 17.750 936
 17.760 930
 17.770 942
 17.780 955
 17.790 973
 17.800 942
 17.810 999
 17.820 955
 17.830 1122
 17.840 1640
 17.850 3856
 17.860 4173
 17.870 1936
 17.880 1176
 17.890 1069
 17.900 999
 17.910 961
 17.920 973
 17.930 955
 17.940 942
 17.950 906
 17.960 942
 17.970 888
 17.980 906
 17.990 906
 18.000 955
 18.010 894
 18.020 906
 18.030 955
 18.040 912
 18.050 955
 18.060 918
 18.070 949
 18.080 930
 18.090 900
 18.100 942
 18.110 853
 18.120 930
 18.130 906
 18.140 882
 18.150 942
 18.160 900
 18.170 930
 18.180 1149
 18.190 1239
 18.200 1037
 18.210 999
 18.220 882
 18.230 912
 18.240 924
 18.250 949
 18.260 900
 18.270 853
 18.280 949
 18.290 961
 18.300 936
 18.310 841
 18.320 961
 18.330 888
 18.340 894
 18.350 900
 18.360 900
 18.370 906
 18.380 912
 18.390 936
 18.400 936
 18.410 949
 18.420 894
 18.430 942
 18.440 870
 18.450 924
 18.460 894
 18.470 936
 18.480 888
 18.490 906
 18.500 900
 18.510 936
 18.520 900
 18.530 900
 18.540 900
 18.550 847
 18.560 930
 18.570 888
 18.580 853
 18.590 912
 18.600 906
 18.610 864
 18.620 864
 18.630 930
 18.640 882
 18.650 876
 18.660 900
 18.670 864
 18.680 882
 18.690 942
 18.700 912
 18.710 900
 18.720 876
 18.730 967
 18.740 900
 18.750 894
 18.760 876
 18.770 864
 18.780 876
 18.790 864
 18.800 906
 18.810 906
 18.820 864
 18.830 930
 18.840 942
 18.850 864
 18.860 930
 18.870 894
 18.880 882
 18.890 882
 18.900 900
 18.910 949
 18.920 870
 18.930 906
 18.940 864
 18.950 853
 18.960 829
 18.970 906
 18.980 870
 18.990 906
 19.000 888
 19.010 858
 19.020 912
 19.030 870
 19.040 870
 19.050 906
 19.060 876
 19.070 818
 19.080 936
 19.090 876
 19.100 876
 19.110 906
 19.120 930
 19.130 986
 19.140 1197
 19.150 1183
 19.160 1011
 19.170 942
 19.180 882
 19.190 870
 19.200 900
 19.210 870
 19.220 882
 19.230 912
 19.240 864
 19.250 858
 19.260 894
 19.270 900
 19.280 870
 19.290 876
 19.300 841
 19.310 864
 19.320 858
 19.330 900
 19.340 882
 19.350 847
 19.360 876
 19.370 918
 19.380 876
 19.390 882
 19.400 882
 19.410 900
 19.420 888
 19.430 870
 19.440 894
 19.450 853
 19.460 829
 19.470 986
 19.480 912
 19.490 906
 19.500 864
 19.510 912
 19.520 864
 19.530 912
 19.540 888
 19.550 912
 19.560 870
 19.570 900
 19.580 900
 19.590 906
 19.600 912
 19.610 912
 19.620 882
 19.630 906
 19.640 918
 19.650 918
 19.660 853
 19.670 930
 19.680 841
 19.690 888
 19.700 888
 19.710 918
 19.720 936
 19.730 876
 19.740 1005
 19.750 1399
 19.760 1739
 19.770 1260
 19.780 894
 19.790 992
 19.800 936
 19.810 924
 19.820 882
 19.830 894
 19.840 924
 19.850 930
 19.860 900
 19.870 942
 19.880 942
 19.890 876
 19.900 924
 19.910 918
 19.920 961
 19.930 918
 19.940 894
 19.950 930
 19.960 888
 19.970 936
 19.980 906
 19.990 912
 20.000 918
 20.010 888
 20.020 955
 20.030 912
 20.040 942
 20.050 1116
 20.060 1204
 20.070 1069
 20.080 942
 20.090 986
 20.100 912
 20.110 858
 20.120 858
 20.130 924
 20.140 906
 20.150 888
 20.160 894
 20.170 888
 20.180 882
 20.190 894
 20.200 888
 20.210 882
 20.220 906
 20.230 936
 20.240 936
 20.250 942
 20.260 853
 20.270 906
 20.280 918
 20.290 888
 20.300 882
 20.310 888
 20.320 918
 20.330 973
 20.340 1037
 20.350 1521
 20.360 1505
 20.370 1050
 20.380 930
 20.390 900
 20.400 930
 20.410 949
 20.420 967
 20.430 906
 20.440 870
 20.450 930
 20.460 882
 20.470 900
 20.480 930
 20.490 924
 20.500 888
 20.510 894
 20.520 918
 20.530 894
 20.540 824
 20.550 930
 20.560 942
 20.570 936
 20.580 900
 20.590 912
 20.600 906
 20.610 955
 20.620 924
 20.630 942
 20.640 1170
 20.650 1232
 20.660 1030
 20.670 961
 20.680 967
 20.690 882
 20.700 973
 20.710 955
 20.720 906
 20.730 924
 20.740 936
 20.750 894
 20.760 888
 20.770 847
 20.780 936
 20.790 961
 20.800 900
 20.810 942
 20.820 936
 20.830 900
 20.840 942
 20.850 936
 20.860 924
 20.870 918
 20.880 900
 20.890 949
 20.900 936
 20.910 949
 20.920 1096
 20.930 1490
 20.940 1568
 20.950 1076
 20.960 930
 20.970 955
 20.980 924
 20.990 942
 21.000 888
 21.010 894
 21.020 912
 21.030 894
 21.040 918
 21.050 876
 21.060 918
 21.070 894
 21.080 949
 21.090 955
 21.100 930
 21.110 900
 21.120 882
 21.130 882
 21.140 918
 21.150 864
 21.160 900
 21.170 918
 21.180 912
 21.190 894
 21.200 961
 21.210 1190
 21.220 1318
 21.230 1096
 21.240 980
 21.250 924
 21.260 882
 21.270 942
 21.280 888
 21.290 900
 21.300 894
 21.310 894
 21.320 894
 21.330 912
 21.340 888
 21.350 864
 21.360 973
 21.370 876
 21.380 906
 21.390 847
 21.400 936
 21.410 882
 21.420 900
 21.430 918
 21.440 870
 21.450 900
 21.460 888
 21.470 924
 21.480 936
 21.490 973
 21.500 1030
 21.510 986
 21.520 942
 21.530 906
 21.540 882
 21.550 906
 21.560 882
 21.570 912
 21.580 864
 21.590 864
 21.600 894
 21.610 930
 21.620 882
 21.630 924
 21.640 918
 21.650 888
 21.660 930
 21.670 864
 21.680 918
 21.690 894
 21.700 912
 21.710 894
 21.720 918
 21.730 882
 21.740 942
 21.750 858
 21.760 955
 21.770 1030
 21.780 1018
 21.790 894
 21.800 930
 21.810 900
 21.820 894
 21.830 918
 21.840 918
 21.850 900
 21.860 858
 21.870 900
 21.880 900
 21.890 912
 21.900 942
 21.910 870
 21.920 870
 21.930 936
 21.940 888
 21.950 912
 21.960 853
 21.970 906
 21.980 936
 21.990 864
 22.000 930
 22.010 918
 22.020 906
 22.030 992
 22.040 1204
 22.050 1616
 22.060 1246
 22.070 999
 22.080 967
 22.090 961
 22.100 870
 22.110 936
 22.120 847
 22.130 882
 22.140 870
 22.150 930
 22.160 918
 22.170 870
 22.180 900
 22.190 912
 22.200 906
 22.210 918
 22.220 894
 22.230 870
 22.240 870
 22.250 870
 22.260 876
 22.270 900
 22.280 888
 22.290 900
 22.300 853
 22.310 936
 22.320 980
 22.330 888
 22.340 967
 22.350 894
 22.360 847
 22.370 918
 22.380 882
 22.390 864
 22.400 841
 22.410 876
 22.420 918
 22.430 853
 22.440 835
 22.450 864
 22.460 882
 22.470 882
 22.480 870
 22.490 906
 22.500 858
 22.510 900
 22.520 870
 22.530 882
 22.540 894
 22.550 870
 22.560 918
 22.570 1030
 22.580 1303
 22.590 1815
 22.600 1225
 22.610 1037
 22.620 918
 22.630 888
 22.640 924
 22.650 894
 22.660 841
 22.670 888
 22.680 870
 22.690 835
 22.700 824
 22.710 870
 22.720 900
 22.730 824
 22.740 888
 22.750 924
 22.760 870
 22.770 906
 22.780 829
 22.790 847
 22.800 912
 22.810 835
 22.820 882
 22.830 824
 22.840 870
 22.850 858
 22.860 864
 22.870 858
 22.880 918
 22.890 801
 22.900 841
 22.910 870
 22.920 824
 22.930 853
 22.940 847
 22.950 858
 22.960 888
 22.970 876
 22.980 853
 22.990 870
 23.000 853
 23.010 900
 23.020 870
 23.030 918
 23.040 900
 23.050 912
 23.060 912
 23.070 980
 23.080 894
 23.090 876
 23.100 894
 23.110 1011
 23.120 1109
 23.130 882
 23.140 900
 23.150 949
 23.160 900
 23.170 876
 23.180 882
 23.190 858
 23.200 841
 23.210 847
 23.220 801
 23.230 870
 23.240 882
 23.250 835
 23.260 847
 23.270 818
 23.280 829
 23.290 829
 23.300 812
 23.310 841
 23.320 801
 23.330 894
 23.340 807
 23.350 847
 23.360 812
 23.370 853
 23.380 841
 23.390 847
 23.400 835
 23.410 784
 23.420 900
 23.430 818
 23.440 812
 23.450 835
 23.460 864
 23.470 829
 23.480 790
 23.490 858
 23.500 801
 23.510 807
 23.520 807
 23.530 767
 23.540 847
 23.550 858
 23.560 818
 23.570 818
 23.580 824
 23.590 841
 23.600 876
 23.610 784
 23.620 949
 23.630 1043
 23.640 967
 23.650 912
 23.660 778
 23.670 829
 23.680 818
 23.690 807
 23.700 882
 23.710 801
 23.720 858
 23.730 807
 23.740 824
 23.750 847
 23.760 812
 23.770 841
 23.780 812
 23.790 818
 23.800 818
 23.810 756
 23.820 829
 23.830 835
 23.840 835
 23.850 818
 23.860 807
 23.870 894
 23.880 894
 23.890 900
 23.900 841
 23.910 824
 23.920 812
 23.930 870
 23.940 807
 23.950 778
 23.960 858
 23.970 847
 23.980 807
 23.990 870
 24.000 835
 24.010 847
 24.020 888
 24.030 841
 24.040 807
 24.050 824
 24.060 818
 24.070 835
 24.080 900
 24.090 876
 24.100 858
 24.110 1005
 24.120 1260
 24.130 2256
 24.140 2480
 24.150 1444
 24.160 1030
 24.170 900
 24.180 864
 24.190 807
 24.200 835
 24.210 801
 24.220 801
 24.230 853
 24.240 778
 24.250 801
 24.260 767
 24.270 812
 24.280 790
 24.290 812
 24.300 818
 24.310 847
 24.320 841
 24.330 841
 24.340 807
 24.350 801
 24.360 824
 24.370 900
 24.380 1156
 24.390 1043
 24.400 841
 24.410 835
 24.420 829
 24.430 824
 24.440 751
 24.450 841
 24.460 818
 24.470 829
 24.480 773
 24.490 795
 24.500 835
 24.510 795
 24.520 818
 24.530 807
 24.540 824
 24.550 767
 24.560 818
 24.570 835
 24.580 784
 24.590 841
 24.600 807
 24.610 795
 24.620 918
 24.630 949
 24.640 900
 24.650 818
 24.660 801
 24.670 858
 24.680 773
 24.690 784
 24.700 801
 24.710 841
 24.720 818
 24.730 767
 24.740 818
 24.750 784
 24.760 835
 24.770 829
 24.780 801
 24.790 824
 24.800 824
 24.810 812
 24.820 801
 24.830 795
 24.840 864
 24.850 906
 24.860 918
 24.870 1232
 24.880 1253
 24.890 924
 24.900 912
 24.910 795
 24.920 807
 24.930 829
 24.940 790
 24.950 835
 24.960 790
 24.970 847
 24.980 853
 24.990 790
 25.000 762
 25.010 847
 25.020 807
 25.030 853
 25.040 835
 25.050 847
 25.060 751
 25.070 784
 25.080 900
 25.090 835
 25.100 876
 25.110 1043
 25.120 1063
 25.130 949
 25.140 858
 25.150 818
 25.160 801
 25.170 790
 25.180 847
 25.190 767
 25.200 841
 25.210 812
 25.220 751
 25.230 762
 25.240 870
 25.250 818
 25.260 767
 25.270 767
 25.280 795
 25.290 801
 25.300 778
 25.310 858
 25.320 930
 25.330 767
 25.340 930
 25.350 1204
 25.360 1399
 25.370 1030
 25.380 882
 25.390 790
 25.400 864
 25.410 829
 25.420 870
 25.430 858
 25.440 784
 25.450 778
 25.460 818
 25.470 824
 25.480 847
 25.490 762
 25.500 818
 25.510 812
 25.520 790
 25.530 812
 25.540 767
 25.550 784
 25.560 829
 25.570 812
 25.580 824
 25.590 847
 25.600 841
 25.610 778
 25.620 784
 25.630 812
 25.640 784
 25.650 812
 25.660 795
 25.670 801
 25.680 864
 25.690 829
 25.700 841
 25.710 790
 25.720 801
 25.730 807
 25.740 841
 25.750 801
 25.760 795
 25.770 818
 25.780 801
 25.790 812
 25.800 824
 25.810 824
 25.820 795
 25.830 795
 25.840 812
 25.850 801
 25.860 790
 25.870 795
 25.880 870
 25.890 795
 25.900 807
 25.910 784
 25.920 729
 25.930 807
 25.940 801
 25.950 818
 25.960 824
 25.970 824
 25.980 812
 25.990 801
 26.000 773
 26.010 847
 26.020 824
 26.030 790
 26.040 801
 26.050 801
 26.060 906
 26.070 924
 26.080 829
 26.090 824
 26.100 767
 26.110 847
 26.120 801
 26.130 824
 26.140 795
 26.150 807
 26.160 795
 26.170 824
 26.180 790
 26.190 773
 26.200 818
 26.210 790
 26.220 795
 26.230 858
 26.240 790
 26.250 795
 26.260 807
 26.270 835
 26.280 812
 26.290 756
 26.300 829
 26.310 829
 26.320 773
 26.330 818
 26.340 807
 26.350 864
 26.360 829
 26.370 751
 26.380 847
 26.390 824
 26.400 773
 26.410 807
 26.420 784
 26.430 778
 26.440 801
 26.450 824
 26.460 858
 26.470 745
 26.480 801
 26.490 858
 26.500 812
 26.510 812
 26.520 961
 26.530 906
 26.540 870
 26.550 858
 26.560 853
 26.570 829
 26.580 778
 26.590 795
 26.600 847
 26.610 812
 26.620 807
 26.630 812
 26.640 824
 26.650 773
 26.660 784
 26.670 767
 26.680 762
 26.690 795
 26.700 773
 26.710 778
 26.720 795
 26.730 795
 26.740 784
 26.750 818
 26.760 824
 26.770 858
 26.780 818
 26.790 824
 26.800 829
 26.810 841
 26.820 778
 26.830 841
 26.840 767
 26.850 790
 26.860 818
 26.870 740
 26.880 824
 26.890 847
 26.900 812
 26.910 818
 26.920 795
 26.930 829
 26.940 778
 26.950 767
 26.960 767
 26.970 818
 26.980 864
 26.990 818
 27.000 778
 27.010 801
 27.020 724
 27.030 835
 27.040 841
 27.050 812
 27.060 818
 27.070 784
 27.080 756
 27.090 778
 27.100 818
 27.110 829
 27.120 801
 27.130 773
 27.140 824
 27.150 773
 27.160 756
 27.170 795
 27.180 801
 27.190 795
 27.200 829
 27.210 812
 27.220 858
 27.230 734
 27.240 824
 27.250 829
 27.260 740
 27.270 773
 27.280 812
 27.290 818
 27.300 807
 27.310 724
 27.320 773
 27.330 790
 27.340 835
 27.350 795
 27.360 853
 27.370 740
 27.380 829
 27.390 818
 27.400 841
 27.410 930
 27.420 1436
 27.430 1505
 27.440 1163
 27.450 949
 27.460 795
 27.470 824
 27.480 824
 27.490 824
 27.500 795
 27.510 853
 27.520 778
 27.530 767
 27.540 778
 27.550 790
 27.560 795
 27.570 778
 27.580 812
 27.590 773
 27.600 784
 27.610 778
 27.620 773
 27.630 784
 27.640 778
 27.650 773
 27.660 767
 27.670 795
 27.680 801
 27.690 745
 27.700 807
 27.710 784
 27.720 778
 27.730 829
 27.740 784
 27.750 847
 27.760 801
 27.770 841
 27.780 784
 27.790 756
 27.800 870
 27.810 784
 27.820 767
 27.830 686
 27.840 824
 27.850 841
 27.860 961
 27.870 1050
 27.880 918
 27.890 841
 27.900 858
 27.910 778
 27.920 773
 27.930 801
 27.940 778
 27.950 795
 27.960 773
 27.970 751
 27.980 756
 27.990 751
 28.000 790
 28.010 751
 28.020 745
 28.030 807
 28.040 807
 28.050 790
 28.060 745
 28.070 835
 28.080 918
 28.090 936
 28.100 858
 28.110 812
 28.120 795
 28.130 795
 28.140 773
 28.150 734
 28.160 784
 28.170 790
 28.180 807
 28.190 778
 28.200 773
 28.210 784
 28.220 795
 28.230 790
 28.240 824
 28.250 818
 28.260 767
 28.270 790
 28.280 882
 28.290 1163
 28.300 1584
 28.310 1340
 28.320 1056
 28.330 829
 28.340 818
 28.350 818
 28.360 784
 28.370 812
 28.380 762
 28.390 762
 28.400 773
 28.410 718
 28.420 801
 28.430 751
 28.440 790
 28.450 734
 28.460 745
 28.470 745
 28.480 773
 28.490 767
 28.500 795
 28.510 864
 28.520 835
 28.530 784
 28.540 778
 28.550 767
 28.560 773
 28.570 756
 28.580 767
 28.590 847
 28.600 718
 28.610 734
 28.620 767
 28.630 767
 28.640 767
 28.650 784
 28.660 778
 28.670 745
 28.680 740
 28.690 801
 28.700 713
 28.710 773
 28.720 864
 28.730 936
 28.740 864
 28.750 778
 28.760 773
 28.770 767
 28.780 724
 28.790 767
 28.800 718
 28.810 692
 28.820 740
 28.830 767
 28.840 740
 28.850 784
 28.860 756
 28.870 801
 28.880 745
 28.890 773
 28.900 784
 28.910 734
 28.920 756
 28.930 784
 28.940 807
 28.950 801
 28.960 751
 28.970 713
 28.980 718
 28.990 724
 29.000 745
 29.010 734
 29.020 773
 29.030 801
 29.040 702
 29.050 795
 29.060 713
 29.070 729
 29.080 751
 29.090 729
 29.100 756
 29.110 762
 29.120 729
 29.130 767
 29.140 756
 29.150 801
 29.160 824
 29.170 784
 29.180 724
 29.190 734
 29.200 734
 29.210 740
 29.220 745
 29.230 702
 29.240 795
 29.250 718
 29.260 740
 29.270 718
 29.280 713
 29.290 740
 29.300 713
 29.310 773
 29.320 751
 29.330 708
 29.340 784
 29.350 745
 29.360 740
 29.370 767
 29.380 801
 29.390 778
 29.400 778
 29.410 740
 29.420 692
 29.430 745
 29.440 740
 29.450 740
 29.460 702
 29.470 734
 29.480 718
 29.490 767
 29.500 692
 29.510 702
 29.520 708
 29.530 708
 29.540 790
 29.550 858
 29.560 1076
 29.570 1362
 29.580 1063
 29.590 835
 29.600 745
 29.610 751
 29.620 729
 29.630 729
 29.640 784
 29.650 724
 29.660 708
 29.670 708
 29.680 702
 29.690 713
 29.700 734
 29.710 702
 29.720 751
 29.730 692
 29.740 692
 29.750 729
 29.760 702
 29.770 734
 29.780 702
 29.790 784
 29.800 702
 29.810 718
 29.820 686
 29.830 724
 29.840 740
 29.850 729
 29.860 740
 29.870 734
 29.880 745
 29.890 729
 29.900 702
 29.910 724
 29.920 724
 29.930 724
 29.940 790
 29.950 734
 29.960 807
 29.970 930
 29.980 999
 29.990 847
 30.000 818
 30.010 702
 30.020 745
 30.030 708
 30.040 724
 30.050 708
 30.060 708
 30.070 729
 30.080 697
 30.090 734
 30.100 724
 30.110 676
 30.120 724
 30.130 681
 30.140 729
 30.150 745
 30.160 708
 30.170 767
 30.180 824
 30.190 853
 30.200 778
 30.210 724
 30.220 734
 30.230 708
 30.240 718
 30.250 724
 30.260 729
 30.270 751
 30.280 729
 30.290 740
 30.300 745
 30.310 734
 30.320 666
 30.330 692
 30.340 718
 30.350 697
 30.360 713
 30.370 713
 30.380 784
 30.390 762
 30.400 745
 30.410 751
 30.420 702
 30.430 756
 30.440 751
 30.450 676
 30.460 702
 30.470 686
 30.480 681
 30.490 729
 30.500 718
 30.510 724
 30.520 697
 30.530 734
 30.540 702
 30.550 745
 30.560 718
 30.570 671
 30.580 681
 30.590 713
 30.600 686
 30.610 650
 30.620 676
 30.630 702
 30.640 666
 30.650 718
 30.660 756
 30.670 671
 30.680 724
 30.690 734
 30.700 702
 30.710 655
 30.720 708
 30.730 702
 30.740 681
 30.750 686
 30.760 718
 30.770 724
 30.780 740
 30.790 745
 30.800 686
 30.810 697
 30.820 681
 30.830 692
 30.840 671
 30.850 702
 30.860 702
 30.870 745
 30.880 718
 30.890 729
 30.900 718
 30.910 666
 30.920 686
 30.930 718
 30.940 697
 30.950 666
 30.960 713
 30.970 713
 30.980 778
 30.990 778
 31.000 650
 31.010 702
 31.020 708
 31.030 708
 31.040 692
 31.050 713
 31.060 686
 31.070 697
 31.080 660
 31.090 681
 31.100 724
 31.110 671
 31.120 697
 31.130 713
 31.140 676
 31.150 686
 31.160 734
 31.170 734
 31.180 790
 31.190 795
 31.200 790
 31.210 734
 31.220 702
 31.230 676
 31.240 650
 31.250 666
 31.260 724
 31.270 734
 31.280 697
 31.290 676
 31.300 692
 31.310 681
 31.320 692
 31.330 708
 31.340 718
 31.350 713
 31.360 681
 31.370 745
 31.380 762
 31.390 767
 31.400 697
 31.410 681
 31.420 713
 31.430 671
 31.440 702
 31.450 681
 31.460 729
 31.470 686
 31.480 666
 31.490 702
 31.500 729
 31.510 640
 31.520 702
 31.530 666
 31.540 708
 31.550 692
 31.560 713
 31.570 708
 31.580 724
 31.590 713
 31.600 686
 31.610 740
 31.620 681
 31.630 686
 31.640 718
 31.650 681
 31.660 724
 31.670 708
 31.680 686
 31.690 686
 31.700 666
 31.710 692
 31.720 708
 31.730 718
 31.740 729
 31.750 702
 31.760 686
 31.770 697
 31.780 650
 31.790 697
 31.800 635
 31.810 686
 31.820 681
 31.830 681
 31.840 724
 31.850 740
 31.860 681
 31.870 681
 31.880 708
 31.890 630
 31.900 666
 31.910 681
 31.920 729
 31.930 692
 31.940 751
 31.950 697
 31.960 734
 31.970 686
 31.980 635
 31.990 767
 32.000 718
 32.010 686
 32.020 745
 32.030 734
 32.040 702
 32.050 718
 32.060 729
 32.070 645
 32.080 713
 32.090 718
 32.100 708
 32.110 718
 32.120 708
 32.130 708
 32.140 697
 32.150 676
 32.160 676
 32.170 625
 32.180 718
 32.190 718
 32.200 676
 32.210 740
 32.220 702
 32.230 713
 32.240 697
 32.250 692
 32.260 645
 32.270 697
 32.280 681
 32.290 671
 32.300 702
 32.310 666
 32.320 708
 32.330 729
 32.340 671
 32.350 745
 32.360 660
 32.370 740
 32.380 724
 32.390 692
 32.400 702
 32.410 686
 32.420 676
 32.430 734
 32.440 702
 32.450 681
 32.460 692
 32.470 676
 32.480 681
 32.490 708
 32.500 702
 32.510 645
 32.520 729
 32.530 697
 32.540 718
 32.550 660
 32.560 640
 32.570 702
 32.580 676
 32.590 676
 32.600 692
 32.610 708
 32.620 692
 32.630 702
 32.640 681
 32.650 718
 32.660 650
 32.670 692
 32.680 676
 32.690 676
 32.700 671
 32.710 773
 32.720 671
 32.730 708
 32.740 713
 32.750 708
 32.760 671
 32.770 692
 32.780 729
 32.790 692
 32.800 697
 32.810 645
 32.820 620
 32.830 718
 32.840 640
 32.850 676
 32.860 762
 32.870 745
 32.880 702
 32.890 681
 32.900 708
 32.910 697
 32.920 681
 32.930 676
 32.940 697
 32.950 729
 32.960 686
 32.970 745
 32.980 708
 32.990 718
 33.000 645
 33.010 686
 33.020 676
 33.030 676
 33.040 681
 33.050 681
 33.060 645
 33.070 724
 33.080 676
 33.090 635
 33.100 660
 33.110 671
 33.120 671
 33.130 740
 33.140 713
 33.150 697
 33.160 645
 33.170 708
 33.180 740
 33.190 686
 33.200 686
 33.210 676
 33.220 734
 33.230 697
 33.240 666
 33.250 729
 33.260 708
 33.270 671
 33.280 692
 33.290 708
 33.300 681
 33.310 729
 33.320 686
 33.330 692
 33.340 681
 33.350 708
 33.360 640
 33.370 645
 33.380 702
 33.390 692
 33.400 666
 33.410 718
 33.420 708
 33.430 655
 33.440 671
 33.450 686
 33.460 718
 33.470 692
 33.480 778
 33.490 702
 33.500 734
 33.510 686
 33.520 681
 33.530 655
 33.540 697
 33.550 655
 33.560 666
 33.570 666
 33.580 650
 33.590 718
 33.600 671
 33.610 671
 33.620 660
 33.630 686
 33.640 697
 33.650 660
 33.660 740
 33.670 660
 33.680 660
 33.690 724
 33.700 660
 33.710 708
 33.720 666
 33.730 660
 33.740 686
 33.750 686
 33.760 610
 33.770 615
 33.780 686
 33.790 713
 33.800 676
 33.810 681
 33.820 734
 33.830 645
 33.840 681
 33.850 660
 33.860 724
 33.870 640
 33.880 740
 33.890 650
 33.900 655
 33.910 605
 33.920 676
 33.930 660
 33.940 692
 33.950 666
 33.960 708
 33.970 734
 33.980 729
 33.990 660
 34.000 692
 34.010 686
 34.020 650
 34.030 745
 34.040 708
 34.050 724
 34.060 729
 34.070 686
 34.080 671
 34.090 686
 34.100 676
 34.110 724
 34.120 671
 34.130 671
 34.140 702
 34.150 660
 34.160 740
 34.170 702
 34.180 702
 34.190 660
 34.200 702
 34.210 762
 34.220 756
 34.230 708
 34.240 713
 34.250 681
 34.260 724
 34.270 718
 34.280 655
 34.290 729
 34.300 671
 34.310 666
 34.320 724
 34.330 692
 34.340 702
 34.350 713
 34.360 640
 34.370 692
 34.380 681
 34.390 702
 34.400 751
 34.410 751
 34.420 708
 34.430 724
 34.440 676
 34.450 660
 34.460 745
 34.470 666
 34.480 681
 34.490 676
 34.500 600
 34.510 635
 34.520 660
 34.530 681
 34.540 713
 34.550 718
 34.560 734
 34.570 734
 34.580 751
 34.590 686
 34.600 734
 34.610 671
 34.620 734
 34.630 697
 34.640 692
 34.650 671
 34.660 671
 34.670 660
 34.680 686
 34.690 681
 34.700 692
 34.710 660
 34.720 671
 34.730 702
 34.740 702
 34.750 734
 34.760 784
 34.770 692
 34.780 708
 34.790 724
 34.800 650
 34.810 676
 34.820 676
 34.830 708
 34.840 650
 34.850 702
 34.860 692
 34.870 702
 34.880 708
 34.890 692
 34.900 660
 34.910 702
 34.920 708
 34.930 697
 34.940 724
 34.950 666
 34.960 671
 34.970 645
 34.980 676
 34.990 655
 35.000 686
 35.010 681
 35.020 660
 35.030 655
 35.040 697
 35.050 650
 35.060 676
 35.070 708
 35.080 713
 35.090 660
 35.100 610
 35.110 713
 35.120 671
 35.130 676
 35.140 686
 35.150 713
 35.160 666
 35.170 655
 35.180 681
 35.190 671
 35.200 681
 35.210 671
 35.220 686
 35.230 640
 35.240 692
 35.250 681
 35.260 686
 35.270 702
 35.280 697
 35.290 676
 35.300 686
 35.310 681
 35.320 713
 35.330 645
 35.340 671
 35.350 655
 35.360 625
 35.370 702
 35.380 671
 35.390 635
 35.400 686
 35.410 625
 35.420 650
 35.430 640
 35.440 676
 35.450 630
 35.460 650
 35.470 660
 35.480 655
 35.490 640
 35.500 681
 35.510 681
 35.520 671
 35.530 692
 35.540 671
 35.550 625
 35.560 630
 35.570 655
 35.580 645
 35.590 650
 35.600 655
 35.610 666
 35.620 686
 35.630 762
 35.640 729
 35.650 740
 35.660 671
 35.670 615
 35.680 702
 35.690 635
 35.700 671
 35.710 650
 35.720 645
 35.730 630
 35.740 681
 35.750 655
 35.760 660
 35.770 660
 35.780 635
 35.790 615
 35.800 660
 35.810 702
 35.820 676
 35.830 676
 35.840 686
 35.850 681
 35.860 655
 35.870 681
 35.880 666
 35.890 666
 35.900 686
 35.910 650
 35.920 666
 35.930 660
 35.940 655
 35.950 666
 35.960 708
 35.970 681
 35.980 676
 35.990 686
 36.000 702
 36.010 625
 36.020 635
 36.030 660
 36.040 676
 36.050 671
 36.060 635
 36.070 610
 36.080 645
 36.090 692
 36.100 666
 36.110 645
 36.120 660
 36.130 655
 36.140 645
 36.150 640
 36.160 686
 36.170 686
 36.180 666
 36.190 708
 36.200 676
 36.210 650
 36.220 650
 36.230 676
 36.240 645
 36.250 650
 36.260 660
 36.270 666
 36.280 640
 36.290 655
 36.300 635
 36.310 630
 36.320 671
 36.330 686
 36.340 620
 36.350 666
 36.360 666
 36.370 660
 36.380 681
 36.390 671
 36.400 655
 36.410 660
 36.420 620
 36.430 640
 36.440 620
 36.450 660
 36.460 671
 36.470 650
 36.480 605
 36.490 655
 36.500 635
 36.510 655
 36.520 605
 36.530 625
 36.540 610
 36.550 666
 36.560 640
 36.570 630
 36.580 625
 36.590 671
 36.600 655
 36.610 666
 36.620 640
 36.630 686
 36.640 650
 36.650 605
 36.660 660
 36.670 666
 36.680 660
 36.690 671
 36.700 600
 36.710 635
 36.720 595
 36.730 645
 36.740 692
 36.750 610
 36.760 630
 36.770 630
 36.780 655
 36.790 655
 36.800 635
 36.810 650
 36.820 655
 36.830 660
 36.840 686
 36.850 660
 36.860 676
 36.870 655
 36.880 666
 36.890 660
 36.900 655
 36.910 645
 36.920 640
 36.930 615
 36.940 625
 36.950 650
 36.960 645
 36.970 605
